TrialNumber,Trial,ISI,Partner,ITI,cLeft,Reciprocate,cRight,ran,order,onset,bpress,resp,resp_onset,highlow,rt,ISIpad,ISI_onset,ISI_offset,outcome_onset,outcome_offset,duration,ITI_onset,ITI_offset
1,1,5.00E-01,1,2,0,0,3,1.0,0.0,4.08206,999.0,999.0,7.08782,999.0,0.0,0.0,7.09592,9.33224,999.0,999.0,994.918,11.3535,13.3328
2,2,2,2,2,0,1,3,1.0,1.0,--,--,--,--,--,--,--,--,--,--,--,--,--,--
3,3,5.00E-01,3,4,0,1,3,0.0,--,--,--,--,--,--,--,--,--,--,--,--,--,--,--
4,4,2,1,8,3,0,0,0.0,--,--,--,--,--,--,--,--,--,--,--,--,--,--,--
5,5,2,3,4,3,0,0,0.0,--,--,--,--,--,--,--,--,--,--,--,--,--,--,--
6,6,5.00E-01,3,4,0,1,3,0.0,--,--,--,--,--,--,--,--,--,--,--,--,--,--,--
7,7,3.50E+00,2,4,0,1,3,0.0,--,--,--,--,--,--,--,--,--,--,--,--,--,--,--
8,8,3.50E+00,1,2,0,0,3,0.0,--,--,--,--,--,--,--,--,--,--,--,--,--,--,--
9,9,5.00E-01,3,2,3,0,0,0.0,--,--,--,--,--,--,--,--,--,--,--,--,--,--,--
10,10,5.00E-01,2,4,0,1,3,0.0,--,--,--,--,--,--,--,--,--,--,--,--,--,--,--
11,11,5.00E-01,2,2,0,0,3,0.0,--,--,--,--,--,--,--,--,--,--,--,--,--,--,--
12,12,2,3,2,0,0,3,0.0,--,--,--,--,--,--,--,--,--,--,--,--,--,--,--
13,13,5.00E-01,2,6,0,0,3,0.0,--,--,--,--,--,--,--,--,--,--,--,--,--,--,--
14,14,5.00E-01,2,2,0,1,3,0.0,--,--,--,--,--,--,--,--,--,--,--,--,--,--,--
15,15,3.50E+00,3,2,3,0,0,0.0,--,--,--,--,--,--,--,--,--,--,--,--,--,--,--
16,16,3.50E+00,1,2,3,0,0,0.0,--,--,--,--,--,--,--,--,--,--,--,--,--,--,--
17,17,5.00E-01,2,2,0,0,3,0.0,--,--,--,--,--,--,--,--,--,--,--,--,--,--,--
18,18,2,2,4,3,1,0,0.0,--,--,--,--,--,--,--,--,--,--,--,--,--,--,--
19,19,5.00E-01,1,4,0,1,3,0.0,--,--,--,--,--,--,--,--,--,--,--,--,--,--,--
20,20,5.00E-01,3,2,0,1,3,0.0,--,--,--,--,--,--,--,--,--,--,--,--,--,--,--
21,21,2,1,2,3,0,0,0.0,--,--,--,--,--,--,--,--,--,--,--,--,--,--,--
22,22,5.00E-01,3,6,0,0,3,0.0,--,--,--,--,--,--,--,--,--,--,--,--,--,--,--
23,23,2,1,8,3,1,0,0.0,--,--,--,--,--,--,--,--,--,--,--,--,--,--,--
24,24,3.50E+00,3,4,0,0,3,0.0,--,--,--,--,--,--,--,--,--,--,--,--,--,--,--
25,25,3.50E+00,3,2,0,1,3,0.0,--,--,--,--,--,--,--,--,--,--,--,--,--,--,--
26,26,5.00E-01,1,8,0,1,3,0.0,--,--,--,--,--,--,--,--,--,--,--,--,--,--,--
27,27,2,2,2,0,0,3,0.0,--,--,--,--,--,--,--,--,--,--,--,--,--,--,--
28,28,5.00E-01,2,4,3,0,0,0.0,--,--,--,--,--,--,--,--,--,--,--,--,--,--,--
29,29,5.00E-01,1,6,3,0,0,0.0,--,--,--,--,--,--,--,--,--,--,--,--,--,--,--
30,30,5.00E-01,1,4,0,1,3,0.0,--,--,--,--,--,--,--,--,--,--,--,--,--,--,--
31,31,5.00E-01,3,2,3,1,0,0.0,--,--,--,--,--,--,--,--,--,--,--,--,--,--,--
32,32,2,1,2,0,1,3,0.0,--,--,--,--,--,--,--,--,--,--,--,--,--,--,--
33,33,5.00E-01,1,2,3,1,0,0.0,--,--,--,--,--,--,--,--,--,--,--,--,--,--,--
34,34,5.00E-01,2,2,0,1,3,0.0,--,--,--,--,--,--,--,--,--,--,--,--,--,--,--
35,35,2,3,6,3,1,0,0.0,--,--,--,--,--,--,--,--,--,--,--,--,--,--,--
36,36,5.00E-01,2,6,0,0,3,0.0,--,--,--,--,--,--,--,--,--,--,--,--,--,--,--
TrialNumber,Trial,ISI,Partner,ITI,cLeft,Reciprocate,cRight,ran,order,onset,bpress,resp,resp_onset,highlow,rt,ISIpad,ISI_onset,ISI_offset,outcome_onset,outcome_offset,duration,ITI_onset,ITI_offset
1,1,5.00E-01,1,2,0,0,3,1.0,0.0,4.09118,2.0,0,6.4185,low,2.32731,0.672685,6.94023,9.34171,9.34193,11.3477,7.25655,11.3482,13.3422
2,2,2,2,2,0,1,3,1.0,1.0,13.3486,3.0,3,14.4207,high,1.07215,1.92785,14.9412,20.0996,20.1061,22.1146,8.76601,22.1149,24.0997
3,3,5.00E-01,3,4,0,1,3,1.0,2.0,24.1065,3.0,3,25.4531,high,1.34665,1.65335,25.9776,29.3575,29.3624,31.3686,7.26216,31.3689,35.3574
4,4,2,1,8,3,0,0,1.0,3.0,35.3681,2.0,3,38.3731,high,3.00495,-0.00494719,38.8945,42.1192,42.1239,44.1298,8.76169,44.1301,52.1189
5,5,2,3,4,3,0,0,1.0,4.0,--,--,--,--,--,--,--,--,--,--,--,--,--,--
6,6,5.00E-01,3,4,0,1,3,0.0,--,--,--,--,--,--,--,--,--,--,--,--,--,--,--
7,7,3.50E+00,2,4,0,1,3,0.0,--,--,--,--,--,--,--,--,--,--,--,--,--,--,--
8,8,3.50E+00,1,2,0,0,3,0.0,--,--,--,--,--,--,--,--,--,--,--,--,--,--,--
9,9,5.00E-01,3,2,3,0,0,0.0,--,--,--,--,--,--,--,--,--,--,--,--,--,--,--
10,10,5.00E-01,2,4,0,1,3,0.0,--,--,--,--,--,--,--,--,--,--,--,--,--,--,--
11,11,5.00E-01,2,2,0,0,3,0.0,--,--,--,--,--,--,--,--,--,--,--,--,--,--,--
12,12,2,3,2,0,0,3,0.0,--,--,--,--,--,--,--,--,--,--,--,--,--,--,--
13,13,5.00E-01,2,6,0,0,3,0.0,--,--,--,--,--,--,--,--,--,--,--,--,--,--,--
14,14,5.00E-01,2,2,0,1,3,0.0,--,--,--,--,--,--,--,--,--,--,--,--,--,--,--
15,15,3.50E+00,3,2,3,0,0,0.0,--,--,--,--,--,--,--,--,--,--,--,--,--,--,--
16,16,3.50E+00,1,2,3,0,0,0.0,--,--,--,--,--,--,--,--,--,--,--,--,--,--,--
17,17,5.00E-01,2,2,0,0,3,0.0,--,--,--,--,--,--,--,--,--,--,--,--,--,--,--
18,18,2,2,4,3,1,0,0.0,--,--,--,--,--,--,--,--,--,--,--,--,--,--,--
19,19,5.00E-01,1,4,0,1,3,0.0,--,--,--,--,--,--,--,--,--,--,--,--,--,--,--
20,20,5.00E-01,3,2,0,1,3,0.0,--,--,--,--,--,--,--,--,--,--,--,--,--,--,--
21,21,2,1,2,3,0,0,0.0,--,--,--,--,--,--,--,--,--,--,--,--,--,--,--
22,22,5.00E-01,3,6,0,0,3,0.0,--,--,--,--,--,--,--,--,--,--,--,--,--,--,--
23,23,2,1,8,3,1,0,0.0,--,--,--,--,--,--,--,--,--,--,--,--,--,--,--
24,24,3.50E+00,3,4,0,0,3,0.0,--,--,--,--,--,--,--,--,--,--,--,--,--,--,--
25,25,3.50E+00,3,2,0,1,3,0.0,--,--,--,--,--,--,--,--,--,--,--,--,--,--,--
26,26,5.00E-01,1,8,0,1,3,0.0,--,--,--,--,--,--,--,--,--,--,--,--,--,--,--
27,27,2,2,2,0,0,3,0.0,--,--,--,--,--,--,--,--,--,--,--,--,--,--,--
28,28,5.00E-01,2,4,3,0,0,0.0,--,--,--,--,--,--,--,--,--,--,--,--,--,--,--
29,29,5.00E-01,1,6,3,0,0,0.0,--,--,--,--,--,--,--,--,--,--,--,--,--,--,--
30,30,5.00E-01,1,4,0,1,3,0.0,--,--,--,--,--,--,--,--,--,--,--,--,--,--,--
31,31,5.00E-01,3,2,3,1,0,0.0,--,--,--,--,--,--,--,--,--,--,--,--,--,--,--
32,32,2,1,2,0,1,3,0.0,--,--,--,--,--,--,--,--,--,--,--,--,--,--,--
33,33,5.00E-01,1,2,3,1,0,0.0,--,--,--,--,--,--,--,--,--,--,--,--,--,--,--
34,34,5.00E-01,2,2,0,1,3,0.0,--,--,--,--,--,--,--,--,--,--,--,--,--,--,--
35,35,2,3,6,3,1,0,0.0,--,--,--,--,--,--,--,--,--,--,--,--,--,--,--
36,36,5.00E-01,2,6,0,0,3,0.0,--,--,--,--,--,--,--,--,--,--,--,--,--,--,--
TrialNumber,Trial,Reciprocate,Partner,ITI,cLeft,ISI,cRight,ran,order,onset,bpress,resp,resp_onset,highlow,rt,ISIpad,ISI_onset,ISI_offset,outcome_onset,outcome_offset,duration,ITI_onset,ITI_offset
1,1,1,1,2,0,2,3,1.0,0.0,4.03352,2.0,0,5.43106,low,1.39754,1.60246,5.95841,10.7873,10.7875,12.7997,8.76616,12.8001,14.7808
2,2,0,2,3,3,3.5,0,1.0,1.0,14.7961,2.0,3,16.1013,high,1.30528,1.69472,16.6298,23.0486,23.0551,25.0776,10.2816,25.0779,28.0416
3,3,0,2,4,3,2,0,1.0,2.0,28.0436,2.0,3,29.2458,high,1.20228,1.79772,29.7653,34.7963,34.7965,36.8086,8.76507,36.8089,40.7866
4,4,0,2,2,0,0.5,3,1.0,3.0,40.7956,3.0,3,42.8425,high,2.04691,0.953093,43.3691,46.0437,46.0439,48.056,7.26044,48.0563,50.0528
5,5,1,1,2,0,0.5,3,1.0,4.0,50.0575,3.0,3,51.345,high,1.28747,1.71253,51.8703,55.2973,55.3031,57.3117,7.25414,57.312,59.2928
6,6,0,1,4,3,0.5,0,1.0,5.0,59.3019,999.0,999,62.3144,999,0.0,0.0,62.3425,64.5499,999.0,999.0,939.698,66.5654,70.5431
7,7,1,3,2,3,0.5,0,1.0,6.0,70.5501,2.0,3,73.0348,high,2.4847,0.5153,73.5619,75.8001,75.8053,77.8125,7.26243,77.8128,79.8093
8,8,1,3,4,3,2,0,1.0,7.0,79.8116,999.0,999,82.8205,999,0.0,0.0,82.8546,86.564,999.0,999.0,919.188,88.5922,92.5543
9,9,1,3,2,0,0.5,3,1.0,8.0,92.5642,999.0,999,95.5742,999,0.0,0.0,95.6034,97.8113,999.0,999.0,906.436,99.8241,101.805
10,10,0,1,3,0,0.5,3,1.0,9.0,101.81,999.0,999,104.81,999,0.0,0.0,104.839,107.062,999.0,999.0,897.19,109.075,112.07
11,11,1,2,2,3,0.5,0,1.0,10.0,112.082,999.0,999,115.097,999,0.0,0.0,115.13,117.33,999.0,999.0,886.919,119.342,121.339
12,12,0,1,2,3,2,0,1.0,11.0,121.344,999.0,999,124.349,999,0.0,0.0,124.377,128.084,999.0,999.0,877.656,130.097,132.093
13,13,1,1,4,0,0.5,3,1.0,12.0,132.103,999.0,999,135.119,999,0.0,0.0,135.147,137.35,999.0,999.0,866.897,139.379,143.356
14,14,1,3,3,0,3.5,3,1.0,13.0,143.362,999.0,999,146.372,999,0.0,0.0,146.406,151.609,999.0,999.0,855.638,153.621,156.616
15,15,0,3,4,3,2,0,1.0,14.0,156.626,999.0,999,159.626,999,0.0,0.0,159.655,163.371,999.0,999.0,842.374,165.383,169.377
16,16,1,2,2,3,2,0,1.0,15.0,169.381,999.0,999,172.397,999,0.0,0.0,172.425,176.133,999.0,999.0,829.619,178.146,180.143
17,17,1,1,4,0,3.5,3,1.0,16.0,180.155,999.0,999,183.167,999,0.0,0.0,183.201,188.401,999.0,999.0,818.845,190.413,194.407
18,18,0,3,4,0,0.5,3,1.0,17.0,194.411,999.0,999,197.421,999,0.0,0.0,197.453,199.664,999.0,999.0,804.589,201.676,205.654
19,19,0,1,4,3,0.5,0,1.0,18.0,205.666,999.0,999,208.674,999,0.0,0.0,208.703,210.911,999.0,999.0,793.334,212.924,216.901
20,20,0,2,4,0,2,3,1.0,19.0,216.915,999.0,999,219.927,999,0.0,0.0,219.955,223.656,999.0,999.0,782.085,225.669,229.662
21,21,0,3,2,3,2,0,1.0,20.0,229.675,999.0,999,232.681,999,0.0,0.0,232.705,236.417,999.0,999.0,769.325,238.429,240.426
22,22,1,2,4,0,2,3,1.0,21.0,240.438,999.0,999,243.45,999,0.0,0.0,243.462,247.185,999.0,999.0,758.562,249.197,253.192
23,23,1,1,2,3,0.5,0,1.0,22.0,253.204,999.0,999,256.205,999,0.0,0.0,256.239,258.464,999.0,999.0,745.796,260.477,262.458
24,24,0,3,2,0,0.5,3,1.0,23.0,262.471,999.0,999,265.474,999,0.0,0.0,265.508,267.718,999.0,999.0,736.529,269.731,271.727
25,25,0,1,2,3,0.5,0,1.0,24.0,271.739,999.0,999,274.744,999,0.0,0.0,274.778,276.984,999.0,999.0,727.261,278.997,280.978
26,26,0,3,4,3,0.5,0,1.0,25.0,280.983,999.0,999,283.996,999,0.0,0.0,284.025,286.235,999.0,999.0,718.017,288.248,292.225
27,27,0,1,4,0,0.5,3,1.0,26.0,--,--,--,--,--,--,--,--,--,--,--,--,--,--
28,28,1,2,2,0,0.5,3,0.0,--,--,--,--,--,--,--,--,--,--,--,--,--,--,--
29,29,1,2,2,0,0.5,3,0.0,--,--,--,--,--,--,--,--,--,--,--,--,--,--,--
30,30,0,2,2,3,2,0,0.0,--,--,--,--,--,--,--,--,--,--,--,--,--,--,--
31,31,1,1,2,3,0.5,0,0.0,--,--,--,--,--,--,--,--,--,--,--,--,--,--,--
32,32,1,3,2,0,3.5,3,0.0,--,--,--,--,--,--,--,--,--,--,--,--,--,--,--
33,33,0,3,4,3,3.5,0,0.0,--,--,--,--,--,--,--,--,--,--,--,--,--,--,--
34,34,1,2,4,3,0.5,0,0.0,--,--,--,--,--,--,--,--,--,--,--,--,--,--,--
35,35,1,3,3,0,3.5,3,0.0,--,--,--,--,--,--,--,--,--,--,--,--,--,--,--
36,36,0,2,2,0,0.5,3,0.0,--,--,--,--,--,--,--,--,--,--,--,--,--,--,--
