TrialNumber,Trial,Reciprocate,Partner,ITI,cLeft,ISI,cRight,ran,order,onset,bpress,resp,resp_onset,highlow,rt,ISIpad,ISI_onset,ISI_offset,outcome_onset,outcome_offset,duration,ITI_onset,ITI_offset
1,1,1,1,2,0,2,3,1.0,0.0,4.0398,3.0,3,6.46816,high,2.42836,0.571637,6.99447,10.7927,10.7997,12.8207,8.78093,12.8211,14.7863
2,2,0,2,3,3,3.5,0,1.0,1.0,14.8149,2.0,3,17.1214,high,2.30646,0.693539,17.6495,23.0698,23.0751,25.0978,10.2829,25.098,28.0638
3,3,0,2,4,3,2,0,1.0,2.0,28.0783,2.0,3,30.0085,high,1.93023,1.06977,30.538,34.8341,34.8343,36.8465,8.76813,36.8467,40.8244
4,4,0,2,2,0,0.5,3,1.0,3.0,40.8459,3.0,3,42.8124,high,1.96642,1.03358,43.3455,46.0971,46.0974,48.1095,7.26359,48.1098,50.1063
5,5,1,1,2,0,0.5,3,1.0,4.0,50.1189,2.0,0,51.5316,low,1.41271,1.58729,52.0646,55.3634,55.3636,57.3914,7.2725,57.3917,59.3726
6,6,0,1,4,3,0.5,0,1.0,5.0,59.3902,2.0,3,61.0845,high,1.69434,1.30566,61.6116,64.6473,64.6527,66.6753,7.2851,66.6756,70.6377
7,7,1,3,2,3,0.5,0,1.0,6.0,70.6567,2.0,3,72.5038,high,1.84708,1.15292,73.0328,75.9103,75.916,77.9227,7.266,77.923,79.9039
8,8,1,3,4,3,2,0,1.0,7.0,79.9208,2.0,3,81.0564,high,1.13564,1.86436,81.5812,86.6742,86.6744,88.6866,8.7658,88.6869,92.6801
9,9,1,3,2,0,0.5,3,1.0,8.0,92.7048,3.0,3,94.6105,high,1.90571,1.09429,95.1379,97.9529,97.9531,99.9653,7.26044,99.9656,101.948
10,10,0,1,3,0,0.5,3,1.0,9.0,101.96,2.0,0,103.547,low,1.58689,1.41311,104.077,107.205,107.205,109.217,7.25664,109.217,112.212
11,11,1,2,2,3,0.5,0,1.0,10.0,112.236,3.0,0,113.634,low,1.3972,1.6028,114.155,117.485,117.485,119.497,7.26088,119.498,121.494
12,12,0,1,2,3,2,0,1.0,11.0,121.507,3.0,0,122.886,low,1.37904,1.62096,123.421,128.264,128.265,130.277,8.7694,130.277,132.258
13,13,1,1,4,0,0.5,3,1.0,12.0,132.276,3.0,3,133.806,high,1.5297,1.4703,134.34,137.531,137.536,139.545,7.26887,139.545,143.523
14,14,1,3,3,0,3.5,3,1.0,13.0,143.541,3.0,3,144.86,high,1.31822,1.68178,145.387,151.791,151.796,153.819,10.2775,153.819,156.798
15,15,0,3,4,3,2,0,1.0,14.0,156.821,2.0,3,158.047,high,1.22602,1.77398,158.57,163.569,163.574,165.581,8.76022,165.581,169.559
16,16,1,2,2,3,2,0,1.0,15.0,169.577,3.0,0,172.068,low,2.49096,0.509036,172.593,176.315,176.315,178.327,8.75039,178.328,180.324
17,17,1,1,4,0,3.5,3,1.0,16.0,180.345,3.0,3,181.737,high,1.39236,1.60764,182.267,188.592,188.597,190.604,10.2592,190.605,194.582
18,18,0,3,4,0,0.5,3,1.0,17.0,194.601,3.0,3,196.158,high,1.55777,1.44223,196.681,199.839,199.844,201.867,7.26669,201.868,205.845
19,19,0,1,4,3,0.5,0,1.0,18.0,205.866,2.0,3,207.278,high,1.41211,1.58789,207.803,211.118,211.123,213.133,7.26713,213.134,217.111
20,20,0,2,4,0,2,3,1.0,19.0,217.135,3.0,3,218.515,high,1.37993,1.62007,219.038,223.882,223.887,225.894,8.75892,225.894,229.888
21,21,0,3,2,3,2,0,1.0,20.0,229.914,3.0,0,232.169,low,2.25482,0.745178,232.706,236.674,236.674,238.686,8.77157,238.686,240.652
22,22,1,2,4,0,2,3,1.0,21.0,240.676,3.0,3,243.139,high,2.46363,0.536367,243.67,247.422,247.427,249.436,8.76069,249.437,253.43
23,23,1,1,2,3,0.5,0,1.0,22.0,253.45,3.0,0,254.976,low,1.52563,1.47437,255.497,258.703,258.703,260.715,7.26444,260.715,262.696
24,24,0,3,2,0,0.5,3,1.0,23.0,262.722,2.0,0,264.396,low,1.67353,1.32647,264.919,267.969,267.969,269.981,7.25915,269.981,271.962
25,25,0,1,2,3,0.5,0,1.0,24.0,271.983,3.0,0,273.548,low,1.56499,1.43501,274.077,277.235,277.235,279.247,7.26464,279.248,281.229
26,26,0,3,4,3,0.5,0,1.0,25.0,281.247,3.0,0,283.351,low,2.1042,0.895803,283.873,286.487,286.487,288.499,7.25212,288.499,292.508
27,27,0,1,4,0,0.5,3,1.0,26.0,292.53,3.0,3,294.471,high,1.94172,1.05828,294.997,297.781,297.786,299.809,7.2795,299.809,303.771
28,28,1,2,2,0,0.5,3,1.0,27.0,303.788,3.0,3,305.358,high,1.56952,1.43048,305.885,309.044,309.05,311.057,7.26814,311.057,313.053
29,29,1,2,2,0,0.5,3,1.0,28.0,313.068,3.0,3,314.527,high,1.45942,1.54058,315.058,318.31,318.311,320.323,7.25498,320.323,322.32
30,30,0,2,2,3,2,0,1.0,29.0,322.342,2.0,3,323.996,high,1.6547,1.3453,324.529,329.076,329.082,331.104,8.76269,331.105,333.086
31,31,1,1,2,3,0.5,0,1.0,30.0,333.099,2.0,3,334.316,high,1.21726,1.78274,334.84,338.358,338.363,340.371,7.27175,340.371,342.352
32,32,1,3,2,0,3.5,3,1.0,31.0,342.378,2.0,0,344.57,low,2.1915,0.808499,345.105,350.635,350.635,352.663,10.2851,352.664,354.629
33,33,0,3,4,3,3.5,0,1.0,32.0,354.652,3.0,0,356.106,low,1.45467,1.54533,356.634,362.913,362.914,364.926,10.274,364.926,368.904
34,34,1,2,4,3,0.5,0,1.0,33.0,368.921,3.0,0,370.177,low,1.25679,1.74321,370.705,374.161,374.161,376.173,7.25265,376.173,380.182
35,35,1,3,3,0,3.5,3,1.0,34.0,380.208,2.0,0,381.53,low,1.32236,1.67764,382.062,388.466,388.466,390.478,10.2703,390.479,393.458
36,36,0,2,2,0,0.5,3,1.0,35.0,393.474,2.0,0,395.335,low,1.86043,1.13957,395.868,398.717,398.717,400.729,7.25486,400.73,402.726
