TrialNumber,Trial,Reciprocate,Partner,ITI,cLeft,ISI,cRight,ran,order,onset,bpress,resp,resp_onset,highlow,rt,ISIpad,ISI_onset,ISI_offset,outcome_onset,outcome_offset,duration,ITI_onset,ITI_offset
1,1,0,1,4,0,5.00E-01,3,1.0,0.0,4.03429,3.0,3,5.7991,high,1.76481,1.23519,6.32958,9.28485,9.2851,11.2973,7.263,11.2977,15.2908
2,2,1,3,2,3,5.00E-01,0,1.0,1.0,15.3167,2.0,3,16.8191,high,1.50238,1.49762,17.3429,20.5801,20.5855,22.6081,7.29136,22.6084,24.558
3,3,1,1,4,0,5.00E-01,3,1.0,2.0,24.5785,2.0,0,26.1219,low,1.54338,1.45662,26.6569,29.8308,29.831,31.8432,7.2647,31.8435,35.8211
4,4,1,2,2,0,5.00E-01,3,1.0,3.0,35.8378,3.0,3,38.5924,high,2.75459,0.245411,39.1209,41.0783,41.0839,43.0907,7.2529,43.091,45.0874
5,5,0,3,2,3,5.00E-01,0,1.0,4.0,45.1133,2.0,3,47.1781,high,2.06483,0.935174,47.7009,50.3602,50.3655,52.3726,7.25927,52.3729,54.3713
6,6,1,3,4,0,3.50E+00,3,1.0,5.0,54.394,2.0,0,55.9142,low,1.52016,1.47984,56.4391,62.6392,62.6394,64.6516,10.2576,64.6519,68.6452
7,7,1,2,2,3,3.50E+00,4,1.0,6.0,68.6721,2.0,3,71.285,low,2.61284,0.38716,71.8205,76.9131,76.9186,78.9411,10.2689,78.9414,80.9222
8,8,1,2,4,0,5.00E-01,3,1.0,7.0,80.944,3.0,3,83.1723,high,2.22835,0.771651,83.7072,86.1949,86.1951,88.2074,7.26336,88.2077,92.1873
9,9,0,2,2,3,5.00E-01,0,1.0,8.0,92.209,2.0,3,94.1423,high,1.93332,1.06668,94.6761,97.46,97.4653,99.4725,7.26347,99.4727,101.469
10,10,0,1,4,3,5.00E-01,0,1.0,9.0,101.482,3.0,0,103.661,low,2.17897,0.82103,104.192,106.726,106.727,108.754,7.27192,108.755,112.732
11,11,0,2,2,3,5.00E-01,0,1.0,10.0,112.749,3.0,0,114.915,low,2.16608,0.833918,115.439,118.005,118.005,120.017,7.26826,120.018,121.999
12,12,0,2,3,0,2,3,1.0,11.0,122.02,2.0,0,124.218,low,2.19812,0.801881,124.754,128.77,128.77,130.782,8.76193,130.783,133.777
13,13,1,1,3,0,3.50E+00,3,1.0,12.0,133.791,3.0,3,136.254,high,2.46378,0.536222,136.781,142.03,142.036,144.042,10.2514,144.042,147.037
14,14,1,3,2,0,5.00E-01,3,1.0,13.0,147.057,3.0,3,149.259,high,2.2023,0.797696,149.791,152.31,152.315,154.322,7.26583,154.323,156.319
15,15,0,3,4,3,5.00E-01,0,1.0,14.0,156.342,2.0,3,158.128,high,1.7865,1.2135,158.652,161.594,161.599,163.606,7.26462,163.607,167.6
16,16,0,2,2,3,2,0,1.0,15.0,167.616,2.0,3,169.632,high,2.01532,0.98468,170.167,174.37,174.375,176.383,8.76625,176.383,178.364
17,17,1,2,2,3,2,0,1.0,16.0,178.378,3.0,0,180.301,low,1.92299,1.07701,180.837,185.118,185.119,187.131,8.75277,187.131,189.128
18,18,0,3,4,0,3.50E+00,3,1.0,17.0,189.153,3.0,3,191.054,high,1.90162,1.09838,191.585,197.413,197.418,199.425,10.2729,199.426,203.403
19,19,1,2,2,0,2,3,1.0,18.0,203.421,2.0,0,205.826,low,2.40438,0.595622,206.362,210.174,210.174,212.202,8.78032,212.202,214.167
20,20,1,3,4,3,5.00E-01,0,1.0,19.0,214.192,3.0,0,216.029,low,1.83646,1.16354,216.562,219.456,219.456,221.468,7.27562,221.468,225.446
21,21,0,2,2,0,5.00E-01,3,1.0,20.0,225.47,3.0,3,227.199,high,1.72885,1.27115,227.732,230.72,230.725,232.732,7.26212,232.732,234.713
22,22,1,1,4,0,5.00E-01,3,1.0,21.0,234.726,3.0,3,236.568,high,1.8419,1.1581,237.093,239.97,239.976,241.983,7.25623,241.983,245.976
23,23,1,2,4,0,5.00E-01,3,1.0,22.0,245.993,2.0,0,247.972,low,1.97889,1.02111,248.496,251.249,251.249,253.261,7.26856,253.262,257.239
24,24,0,1,2,3,2,0,1.0,23.0,257.26,2.0,3,259.559,high,2.29816,0.701839,260.087,264.01,264.015,266.024,8.7637,266.024,268.021
25,25,0,2,4,3,2,0,1.0,24.0,268.038,2.0,3,269.845,high,1.80695,1.19305,270.369,274.776,274.781,276.804,8.76599,276.804,280.782
26,26,0,3,2,0,5.00E-01,3,1.0,25.0,280.807,2.0,0,282.482,low,1.67493,1.32507,283.005,286.054,286.054,288.067,7.25942,288.067,290.048
27,27,1,3,2,0,5.00E-01,3,1.0,26.0,290.063,3.0,3,291.952,high,1.88856,1.11144,292.475,295.305,295.311,297.317,7.25426,297.318,299.299
28,28,1,1,3,3,2,0,1.0,27.0,299.319,3.0,0,301.455,low,2.13529,0.864713,301.976,306.071,306.071,308.083,8.76403,308.084,311.078
29,29,0,1,2,0,3.50E+00,3,1.0,28.0,311.096,3.0,3,312.908,high,1.81162,1.18838,313.442,319.346,319.352,321.359,10.2624,321.359,323.34
30,30,1,1,2,3,5.00E-01,0,1.0,29.0,323.359,3.0,0,325.095,low,1.73612,1.26388,325.626,328.597,328.597,330.609,7.25059,330.61,332.622
31,31,0,3,4,0,3.50E+00,3,1.0,30.0,332.647,2.0,0,334.481,low,1.83386,1.16614,335.017,340.891,340.891,342.903,10.2558,342.903,346.897
32,32,0,1,4,0,2,3,1.0,31.0,346.91,2.0,0,349.386,low,2.47585,0.524149,349.916,353.651,353.651,355.664,8.75395,355.664,359.657
33,33,1,3,2,3,5.00E-01,0,1.0,32.0,359.683,2.0,3,361.456,high,1.77284,1.22716,361.991,364.93,364.935,366.942,7.25935,366.943,368.924
34,34,0,1,2,3,5.00E-01,0,1.0,33.0,368.937,2.0,3,371.059,high,2.12215,0.877853,371.584,374.183,374.188,376.195,7.25846,376.195,378.176
35,35,0,3,3,3,2,0,1.0,34.0,378.195,2.0,3,380.028,high,1.83336,1.16664,380.556,384.947,384.952,386.959,8.76425,386.959,389.954
36,36,1,1,3,3,2,0,1.0,35.0,389.967,3.0,0,391.765,low,1.79759,1.20241,392.287,396.724,396.725,398.737,8.76946,398.737,401.716
